<?xml version="1.0" encoding="UTF-8"?><CarePlan xmlns="http://hl7.org/fhir">
  <id value="f001"/>
  <meta>
    <security>
      <system value="http://terminology.hl7.org/CodeSystem/v3-ActReason"/>
      <code value="HTEST"/>
      <display value="test health data"/>
    </security>
  </meta>
  <text><status value="generated"/><div xmlns="http://www.w3.org/1999/xhtml"><p><b>Generated Narrative with Details</b></p><p><b>id</b>: f001</p><p><b>contained</b>: , </p><p><b>identifier</b>: CP2903 (OFFICIAL)</p><p><b>status</b>: completed</p><p><b>intent</b>: plan</p><p><b>subject</b>: <a>P. van de Heuvel</a></p><p><b>period</b>: 26/06/2011 --&gt; 27/06/2011</p><p><b>careTeam</b>: id: careteam</p><p><b>addresses</b>: <a>?????</a></p><p><b>goal</b>: id: goal; lifecycleStatus: completed; Achieved <span>(Details : {http://terminology.hl7.org/CodeSystem/goal-achievement code 'achieved' = 'Achieved', given as 'Achieved'})</span>; recovery surgery on heart of patient <span>(Details )</span>; Annotation: goal accomplished without complications</p><blockquote><p><b>activity</b></p><h3>Details</h3><table><tr><td>-</td><td><b>Kind</b></td><td><b>Code</b></td><td><b>Status</b></td><td><b>DoNotPerform</b></td><td><b>Scheduled[x]</b></td><td><b>Performer</b></td></tr><tr><td>*</td><td>ServiceRequest</td><td>Operation on heart <span>(Details : {SNOMED CT code '64915003' = 'Operative procedure on heart', given as 'Operation on heart'})</span></td><td>completed</td><td>true</td><td>2011-06-27T09:30:10+01:00</td><td><a>P. Voigt</a></td></tr></table></blockquote></div></text><contained>
    <CareTeam>
        <id value="careteam"/>
        <participant>
    	    <member>
      		<reference value="Practitioner/f002"/>
      		<display value="P. Voigt"/>
            </member>
  	</participant>
    </CareTeam>
  </contained>  
  <contained>
    <Goal>
      <id value="goal"/>
      <lifecycleStatus value="completed"/>
	  <achievementStatus>
		<coding>
			<system value="http://terminology.hl7.org/CodeSystem/goal-achievement"/>
			<code value="achieved"/>
			<display value="Achieved"/>
		</coding>
		<text value="Achieved"/>
	  </achievementStatus>
      <description>
        <text value="recovery surgery on heart of patient"/>
      </description>
      <subject>
	<reference value="Patient/f001"/>
	<display value="P. van de Heuvel"/>
      </subject>
      <note>
        <text value="goal accomplished without complications"/>
      </note>
    </Goal>
  </contained>
  <identifier>
    <use value="official"/>
    <!--   urn:oid:2.16.840.1.113883.4.642.1.36   -->
    <system value="http://www.bmc.nl/zorgportal/identifiers/careplans"/>
    <value value="CP2903"/>
  </identifier>
  <status value="completed"/>
  <intent value="plan"/>
  <subject>
    <reference value="Patient/f001"/>
    <display value="P. van de Heuvel"/>
  </subject>
  <period>
    <start value="2011-06-26"/>
    <end value="2011-06-27"/>
  </period>
  <careTeam>
    <reference value="#careteam"/>
  </careTeam>  
  <addresses>
    <reference value="Condition/f201"/>
    <!--  TODO Correcte referentie  -->
    <display value="?????"/>
  </addresses>
  <goal>
    <reference value="#goal"/>
  </goal>
  <activity>
    <detail>
      <kind value="ServiceRequest"/>
      <!--   urn:oid:2.16.840.1.113883.4.642.1.39   -->
      <code>
        <coding>
          <system value="http://snomed.info/sct"/>
          <code value="64915003"/>
          <display value="Operation on heart"/>
        </coding>
      </code>
      <status value="completed"/>
      <doNotPerform value="true"/>
      <scheduledString value="2011-06-27T09:30:10+01:00"/>
      <performer>
        <reference value="Practitioner/f002"/>
        <display value="P. Voigt"/>
      </performer>
    </detail>
  </activity>
</CarePlan>